time,ax,ay,az,atotal
0.0050771236419677734,-0.01,0.04,-0.26,0.32
0.008584022521972656,-0.2,0.01,-0.31,0.35
0.019484996795654297,0.06,-0.04,-0.23,0.24
0.03123617172241211,-0.75,0.03,-0.01,0.1
0.03894209861755371,-0.73,0.18,0.23,0.41
0.04877519607543945,-0.08,0.09,0.11,0.24
0.058331966400146484,0.24,-0.01,0.01,0.07
0.06800508499145508,0.25,0.06,-0.14,0.15
0.07953715324401855,-0.04,0.05,-0.19,0.21
0.08862495422363281,-0.15,0.07,0.01,0.07
0.09825706481933594,0.32,0.16,0.38,0.41
0.10879802703857422,0.46,0.02,0.32,0.39
0.1288890838623047,0.03,0.15,0.03,0.34
0.1323680877685547,-0.18,0.71,0.04,0.74
0.1378159523010254,-0.14,1.12,0.34,1.17
0.14728713035583496,-0.07,1.86,1.17,2.28
0.15761327743530273,-0.04,2.66,2.61,3.95
0.1739201545715332,-0.04,3.21,4.01,5.37
0.17656207084655762,-0.14,4.64,5.92,7.98
0.18723106384277344,-0.2,5.66,7.42,10.24
0.19707918167114258,-0.29,7.24,8.04,12.44
0.2071220874786377,-0.28,10.84,9.61,16.96
0.22352313995361328,-0.14,12.38,8.69,18.6
0.22780227661132812,0.06,10.61,6.76,16.36
0.23617315292358398,0.19,10.93,9.09,17.34
0.24716520309448242,0.15,9.23,5.05,13.58
0.2566971778869629,0.08,8.3,2.86,12.35
0.27368712425231934,0.09,6.95,5.99,11.88
0.27597713470458984,0.03,5.07,6.45,9.79
0.2867431640625,-0.05,3.45,4.14,7.55
0.296342134475708,0.02,1.94,4.62,8.73
0.30631017684936523,0.05,-0.23,6.89,10.68
0.3163480758666992,0.07,-2.87,5.63,10.0
0.32703495025634766,0.04,-5.53,2.28,8.63
0.33598804473876953,-0.04,-7.83,0.44,8.7
0.34644222259521484,-0.07,-9.19,0.61,9.32
0.35685110092163086,0.01,-11.53,1.01,11.59
0.3665642738342285,0.0,-16.41,3.16,17.01
0.3755660057067871,-0.13,-22.48,5.33,24.08
0.3854331970214844,-0.04,-30.15,5.24,32.98
0.3961319923400879,0.04,-36.51,3.5,41.92
0.4059281349182129,-0.09,-38.92,1.78,45.98
0.4158940315246582,-0.11,-36.87,0.1,42.31
0.4263639450073242,0.0,-32.54,-1.44,36.01
0.43512725830078125,-0.03,-28.37,-0.06,29.92
0.4453291893005371,0.02,-25.49,-1.82,25.94
0.45506715774536133,0.1,-18.71,-7.64,20.29
0.46568822860717773,0.06,-13.08,-8.2,15.44
0.4747791290283203,0.03,-10.17,-8.41,13.55
0.48607921600341797,-0.01,-9.19,-9.97,13.93
0.49521613121032715,-0.04,-9.63,-14.81,17.76
0.5055301189422607,-0.01,-9.07,-12.3,15.34
0.5152959823608398,0.02,-4.26,1.65,8.65
0.5258071422576904,0.01,6.18,11.78,24.38
0.535067081451416,0.08,20.24,11.67,40.59
0.544572114944458,0.06,31.68,4.62,52.44
0.5551681518554688,-0.04,39.44,0.93,59.73
0.5645661354064941,-0.07,43.18,-0.75,60.89
0.5743222236633301,-0.07,41.33,0.45,56.1
0.584996223449707,0.01,38.8,3.71,52.66
0.5942361354827881,0.01,33.02,3.37,46.04
0.6048212051391602,0.0,22.19,6.23,33.26
0.6145710945129395,-0.01,9.77,14.79,24.76
0.6254429817199707,-0.01,-1.92,20.95,24.4
0.6345970630645752,-0.01,-11.95,25.02,28.61
0.6438350677490234,0.04,-21.82,22.5,31.34
0.6546361446380615,0.04,-31.66,16.27,36.7
0.6642551422119141,-0.03,-42.13,11.94,48.55
0.6737241744995117,0.0,-53.21,10.57,63.48
0.685340166091919,-0.03,-62.28,9.56,76.77
0.6940450668334961,-0.04,-66.78,2.56,82.81
0.7042081356048584,-0.03,-63.57,-5.35,77.41
0.7138462066650391,0.02,-56.86,-8.25,65.36
0.726254940032959,0.07,-48.75,-8.99,52.47
0.7332940101623535,0.15,-37.81,-10.4,39.32
0.7433481216430664,0.16,-25.22,-7.38,28.23
0.7540249824523926,0.1,-9.96,-4.2,26.03
0.7636270523071289,-0.13,9.37,-0.34,37.72
0.773198127746582,-0.21,31.57,5.52,57.88
0.783174991607666,-0.15,52.33,5.35,77.21
0.7937741279602051,-0.16,67.08,-1.51,89.89
0.8038921356201172,-0.19,73.42,-10.04,96.65
0.8133931159973145,-0.18,72.16,-10.44,95.79
0.8253059387207031,-0.06,60.68,-4.52,84.14
0.8328762054443359,0.1,38.95,3.95,62.21
0.8428759574890137,0.3,11.36,18.1,39.82
0.8534612655639648,0.2,-15.95,32.09,40.51
0.8627610206604004,0.07,-43.84,37.13,57.45
0.8726630210876465,-0.01,-70.88,35.88,84.02
0.8825280666351318,-0.08,-87.0,30.83,106.78
0.8924810886383057,-0.02,-89.75,17.39,110.24
0.9023990631103516,-0.02,-86.59,2.72,102.57
0.9124701023101807,-0.23,-80.66,-6.85,91.94
0.9238381385803223,-0.31,-69.94,-11.41,75.28
0.9322919845581055,-0.22,-57.26,-13.19,59.14
0.9423620700836182,-0.04,-44.07,-10.45,45.98
0.9521350860595703,0.61,-26.26,-5.64,34.39
0.9622881412506104,1.33,-0.19,-2.1,40.08
0.9723682403564453,1.59,30.29,3.79,65.31
0.9820010662078857,2.67,55.15,0.23,83.6
0.9928321838378906,4.23,67.83,-11.33,90.52
1.0029881000518799,6.14,73.6,-13.83,95.23
1.011970043182373,8.82,74.43,-13.48,96.94
1.0268380641937256,10.83,62.49,-10.22,82.71
1.0317871570587158,10.47,43.08,-1.6,59.54
1.0416760444641113,9.93,22.17,10.11,39.09
1.0528130531311035,8.6,-0.12,20.28,28.24
1.0617179870605469,8.69,-19.84,24.96,32.91
1.0750031471252441,7.56,-39.58,27.7,48.6
1.0814509391784668,5.36,-61.12,31.72,72.69
1.0921931266784668,5.29,-75.51,31.41,91.91
1.102997064590454,7.16,-80.49,19.11,96.58
1.1118412017822266,8.17,-78.77,4.4,91.36
1.1263210773468018,7.76,-69.84,-5.95,77.26
1.1313591003417969,6.23,-59.03,-11.91,62.63
1.1410911083221436,3.78,-48.25,-14.38,50.54
1.1517391204833984,1.48,-37.43,-11.75,39.69
1.1611530780792236,-0.63,-22.98,-6.46,28.41
1.1726422309875488,-3.22,-0.44,-0.85,28.49
1.1809451580047607,-6.79,27.18,4.88,51.95
1.1917009353637695,-12.32,51.1,3.15,73.94
1.2032921314239502,-20.31,65.94,-1.71,86.39
1.2115590572357178,-24.42,72.53,-1.8,92.06
1.2268619537353516,-20.77,68.87,-0.12,86.75
1.2307829856872559,-15.37,55.04,2.82,68.36
1.2406771183013916,-9.53,40.53,9.62,52.44
1.2525050640106201,-4.48,25.75,15.96,41.42
1.261125087738037,-1.89,8.85,17.54,28.04
1.2751450538635254,0.27,-7.99,19.91,24.36
1.2804241180419922,3.11,-25.35,21.0,33.34
1.2903411388397217,3.23,-46.12,20.06,50.7
1.3016610145568848,1.87,-67.71,17.6,75.27
1.3102951049804688,1.39,-81.52,11.29,95.05
1.3258881568908691,7.35,-84.54,-0.29,99.83
1.3300962448120117,20.44,-78.7,-10.56,91.29
1.3400750160217285,33.2,-66.13,-20.5,75.09
1.3509330749511719,41.54,-51.46,-24.83,58.42
1.3602771759033203,44.85,-38.97,-20.24,43.98
1.3724901676177979,42.93,-24.97,-9.97,31.17
1.3801841735839844,37.94,-4.35,2.13,29.36
1.3908100128173828,35.42,22.97,13.8,52.1
1.4019100666046143,31.92,49.31,15.67,76.03
1.410473108291626,23.99,67.92,7.12,91.16
1.4259071350097656,17.29,80.17,-1.1,102.21
1.4299111366271973,12.37,80.86,-4.88,102.35
1.4398140907287598,7.06,67.64,-2.36,87.46
1.4516639709472656,0.58,47.15,3.39,65.15
1.4597761631011963,-8.95,24.56,12.25,44.19
1.4753811359405518,-20.97,0.27,22.54,33.62
1.4808192253112793,-32.97,-23.24,28.14,39.18
1.4898982048034668,-43.86,-46.99,30.37,55.94
1.4993841648101807,-48.91,-76.01,34.56,87.47
1.5092051029205322,-43.86,-96.63,34.62,116.85
1.5201139450073242,-31.17,-102.25,22.24,124.23
1.5293049812316895,-17.21,-96.38,6.63,113.18
1.5390610694885254,-2.91,-84.17,-5.17,92.97
1.5488641262054443,10.32,-67.64,-10.92,70.11
1.558743953704834,23.68,-50.25,-13.31,52.36
1.5688929557800293,36.54,-33.42,-13.5,41.07
1.5789971351623535,48.2,-14.13,-14.46,34.74
1.589501142501831,56.52,9.21,-8.87,44.36
1.5990650653839111,59.82,38.06,-9.92,69.8
1.6089019775390625,62.05,61.31,-26.4,89.68
1.6199779510498047,62.14,72.12,-38.33,100.29
1.6286351680755615,58.12,69.95,-33.15,97.47
1.638524055480957,48.35,59.38,-22.34,82.45
1.6485719680786133,33.61,44.58,-9.34,63.1
1.6583552360534668,18.9,28.26,6.96,46.49
1.6685590744018555,-0.36,11.53,18.4,35.97
1.6783380508422852,-27.38,-5.11,20.92,28.69
1.688326120376587,-53.69,-23.04,24.08,33.9
1.6980781555175781,-61.61,-46.76,30.15,56.77
1.7078220844268799,-54.93,-67.42,34.18,82.3
1.7195241451263428,-43.6,-77.06,28.46,94.35
1.727865219116211,-25.42,-77.97,14.83,92.4
1.7380220890045166,-6.77,-71.35,2.35,81.25
1.7481002807617188,7.96,-60.94,-5.41,66.03
1.757822036743164,21.48,-48.25,-9.34,50.08
1.7678732872009277,40.03,-34.29,-10.37,35.91
1.777785062789917,57.74,-16.98,-9.31,24.0
1.788142204284668,62.83,6.36,-8.49,29.42
1.797584056854248,58.87,31.92,-5.67,50.47
1.807638168334961,58.83,52.13,-4.04,69.84
1.8204901218414307,60.64,64.64,-4.06,82.23
1.8273000717163086,53.22,69.34,-3.18,86.96
1.8397681713104248,41.08,65.44,-0.72,82.34
1.848257064819336,30.57,52.27,6.31,67.8
1.8579201698303223,19.66,34.66,12.77,49.67
1.867948055267334,8.19,16.38,14.97,31.9
1.877243995666504,-5.31,-3.65,18.34,22.3
1.8877291679382324,-23.31,-26.02,20.25,32.99
1.8984932899475098,-41.96,-47.65,20.25,54.75
1.9070839881896973,-49.85,-62.21,19.16,72.95
1.918910026550293,-46.08,-69.0,9.13,80.84
1.9269042015075684,-32.52,-68.36,-4.24,80.06
1.937317132949829,-17.24,-64.81,-11.26,75.14
1.9469809532165527,-4.48,-57.4,-14.08,64.16
1.9584500789642334,6.04,-45.77,-16.39,50.07
1.966520071029663,15.42,-32.1,-17.75,36.69
1.9772920608520508,28.48,-15.68,-16.86,25.01
1.987368106842041,44.01,3.55,-13.73,25.29
1.9970922470092773,53.35,22.99,-7.91,39.1
2.00618314743042,55.8,37.23,-2.56,51.99
2.0182652473449707,56.68,45.09,1.59,59.93
2.026494026184082,52.75,45.9,6.47,59.8
2.0362119674682617,40.46,37.87,11.41,49.76
2.0469491481781006,31.87,26.16,16.74,37.36
2.056273937225342,28.25,13.53,19.63,26.65
2.0661120414733887,20.02,-0.11,19.43,19.46
2.0761542320251465,11.55,-9.11,16.73,20.09
2.085905075073242,5.31,-13.18,11.16,19.7
2.0965499877929688,-6.46,-18.22,5.56,23.56
2.1084980964660645,-27.78,-23.14,1.3,29.21
2.1175832748413086,-47.57,-24.31,-2.34,30.48
2.1257641315460205,-53.11,-22.18,-3.64,26.95
2.135606288909912,-45.06,-16.48,-2.82,18.45
2.1456480026245117,-29.08,-6.26,-3.35,7.18
2.1563572883605957,-12.19,5.18,-4.96,11.02
2.165377140045166,2.47,17.84,-4.3,24.63
2.176058292388916,15.78,29.25,-2.09,38.16
2.1864819526672363,28.96,35.85,-2.7,46.35
2.1956310272216797,44.69,37.56,-6.43,48.04
2.2082910537719727,55.71,34.27,-9.77,44.79
2.2164790630340576,60.39,27.64,-8.83,38.51
2.225295066833496,63.4,14.95,-4.0,25.76
2.2352051734924316,62.57,-3.98,4.96,10.85
2.2450921535491943,55.4,-23.6,16.16,29.39
2.2559571266174316,44.84,-39.08,19.84,48.34
2.265038013458252,34.64,-47.05,16.67,58.13
2.2751080989837646,24.95,-49.45,11.68,60.7
2.285175085067749,14.26,-48.6,6.26,57.85
2.294711112976074,0.06,-43.09,2.68,49.19
2.3059160709381104,-26.06,-36.86,-0.36,40.79
2.315822124481201,-55.84,-30.61,-4.5,33.42
2.324512004852295,-66.97,-21.92,-6.76,23.78
2.3360142707824707,-58.97,-12.17,-8.47,14.87
2.3446340560913086,-39.15,-2.4,-10.89,13.15
2.355879068374634,-14.89,6.24,-12.74,17.9
2.3642780780792236,6.32,12.7,-11.22,22.35
2.374415159225464,19.7,16.85,-7.53,25.5
2.3859641551971436,28.26,17.74,-3.97,24.9
2.394808292388916,42.48,16.25,0.11,21.88
2.4060912132263184,57.67,14.52,4.5,20.16
2.415187120437622,59.89,13.99,7.4,20.97
2.424215078353882,58.21,12.81,7.01,19.26
2.4347310066223145,59.24,9.95,5.72,14.67
2.4447481632232666,52.67,7.06,5.62,10.89
2.4584450721740723,43.67,4.8,6.95,9.35
2.4635720252990723,36.26,1.65,7.57,7.84
2.4736342430114746,28.68,-0.33,6.23,6.31
2.48576021194458,18.96,-0.69,4.87,5.03
2.4941251277923584,6.26,-0.67,4.4,4.46
2.5087499618530273,-11.32,-1.5,3.97,4.39
2.5146002769470215,-32.56,-2.7,2.84,4.79
2.5233912467956543,-46.41,-3.0,2.06,4.79
2.534982204437256,-47.33,-2.78,1.31,4.09
2.5440282821655273,-38.81,-2.27,-0.08,3.21
2.558022975921631,-24.85,-1.28,-1.33,2.34
2.5631680488586426,-9.67,-0.6,-2.26,2.55
2.573791980743408,2.5,-0.51,-2.85,3.03
2.583250045776367,14.19,-0.5,-2.78,2.94
2.5940842628479004,27.45,-0.51,-2.32,2.47
2.6102871894836426,38.69,-0.58,-2.22,2.35
2.614359140396118,46.31,-0.42,-1.57,1.62
2.6230249404907227,50.67,-0.41,-1.09,1.19
2.6334471702575684,52.39,-0.37,-1.05,1.15
2.6433730125427246,49.97,0.0,-0.65,0.91
2.6582412719726562,42.72,-0.1,-0.3,0.54
2.6627402305603027,33.22,-0.38,0.06,0.51
2.6727230548858643,22.92,-0.17,0.3,0.43
2.682631015777588,12.15,-0.4,-0.05,0.4
2.692491054534912,-1.32,-0.49,0.07,0.49
2.7062771320343018,-17.81,-0.47,0.42,0.63
2.7133281230926514,-32.94,-0.42,0.71,0.85
2.7224202156066895,-41.13,-0.29,0.65,0.71
2.7323379516601562,-41.47,-0.11,0.45,0.46
2.7421979904174805,-36.32,-0.03,0.43,0.43
2.7561559677124023,-24.97,0.08,0.77,0.78
2.762399196624756,-12.02,0.08,0.67,0.77
2.7718310356140137,-0.96,0.16,0.7,0.8
2.781867027282715,9.77,0.42,1.01,1.12
2.791877269744873,20.94,0.63,0.71,1.05
2.806112289428711,30.63,0.57,0.25,0.63
2.813120126724243,36.21,0.64,-0.19,0.66
2.8218390941619873,39.46,0.63,-0.21,0.66
2.831787109375,37.79,0.59,-0.09,0.67
2.842564105987549,30.21,0.54,-0.2,0.7
2.8571650981903076,20.78,0.27,-0.42,0.53
2.861523151397705,11.92,0.17,-0.36,0.42
2.8716771602630615,1.15,-0.14,-0.23,0.28
2.8813390731811523,-6.41,0.08,0.13,0.25
2.891188144683838,-9.48,0.05,0.03,0.27
2.90571928024292,-13.87,-0.03,-0.03,0.13
2.9121971130371094,-17.79,-0.03,-0.03,0.04
2.9209721088409424,-18.25,0.03,-0.01,0.06
2.93096923828125,-14.88,0.01,-0.15,0.3
2.9408822059631348,-7.82,-0.14,-0.25,0.59
2.9555139541625977,1.13,-0.11,-0.03,0.38
2.9608802795410156,8.38,-0.1,0.24,0.32
2.9707722663879395,16.43,-0.12,0.25,0.33
2.9816670417785645,24.42,-0.07,0.41,0.44
2.991471290588379,29.27,-0.16,0.65,0.66
3.0077619552612305,29.26,-0.06,0.5,0.52
3.011868953704834,27.14,0.01,0.08,0.39
3.020720958709717,25.32,-0.21,-0.15,0.62
3.0311901569366455,20.6,-0.02,-0.08,0.2
3.0409741401672363,8.8,0.1,-0.27,0.29
3.0551609992980957,-6.76,0.2,-0.43,0.47
3.0605580806732178,-20.4,0.23,-0.74,0.77
3.0705461502075195,-29.8,0.27,-0.83,0.88
3.08040714263916,-33.21,0.21,-0.45,0.53
3.0902230739593506,-30.75,-0.14,-0.38,0.4
3.1058640480041504,-23.58,-0.27,-0.27,0.4
3.1112279891967773,-17.48,-0.29,-0.05,0.34
3.11997127532959,-12.65,-0.24,0.02,0.24
3.1298232078552246,-6.3,-0.01,0.03,0.24
3.140571117401123,1.18,0.03,0.09,0.28
3.155527114868164,6.97,-0.12,0.07,0.14
3.159663200378418,10.92,-0.1,0.13,0.2
3.169650077819824,14.58,-0.11,0.02,0.14
3.1802830696105957,17.6,-0.21,-0.03,0.27
3.190305233001709,17.02,-0.17,-0.13,0.32
3.199857234954834,14.66,-0.16,-0.18,0.26
3.2106220722198486,13.25,-0.03,-0.38,0.38
3.2194442749023438,13.77,0.13,-0.3,0.35
3.2300610542297363,12.56,0.15,-0.14,0.22
3.239622116088867,9.15,0.1,-0.22,0.28
3.2496981620788574,6.11,0.01,-0.1,0.21
3.2591631412506104,4.02,-0.01,0.21,0.29
3.269015073776245,1.24,-0.03,0.31,0.33
3.27974009513855,-0.96,0.21,0.25,0.33
3.2898921966552734,-1.07,0.32,0.0,0.38
3.2997560501098633,-0.29,0.22,-0.15,0.26
3.3097519874572754,-1.14,0.34,-0.12,0.38
3.3186392784118652,-2.77,0.17,-0.05,0.17
3.3287129402160645,-3.12,-0.11,0.28,0.41
3.33870005607605,-2.7,-0.21,0.56,0.7
3.3493101596832275,-2.28,-0.18,0.57,0.7
3.3586061000823975,-1.45,0.01,0.45,0.47
3.36867094039917,-1.03,0.19,0.2,0.27
3.3789730072021484,-0.92,0.15,-0.04,0.15
3.388810157775879,-0.82,0.16,-0.06,0.17
3.3985910415649414,-0.69,0.11,-0.2,0.22
3.40946102142334,-0.51,0.08,-0.07,0.1
3.418890953063965,0.08,0.05,0.02,0.06
3.428178071975708,0.26,-0.12,0.15,0.25
3.4389519691467285,0.29,-0.15,0.21,0.34
3.4486801624298096,0.65,-0.1,0.04,0.3
3.4584202766418457,0.44,0.04,-0.04,0.17
3.4684972763061523,0.34,0.13,-0.16,0.21
3.477847099304199,0.27,0.16,-0.35,0.38
3.489716053009033,-0.06,0.22,-0.21,0.37
3.498756170272827,-0.05,0.15,-0.25,0.32
3.508857250213623,0.05,-0.09,-0.49,0.56
3.518221139907837,0.21,-0.13,-0.45,0.53
3.5274839401245117,0.07,-0.17,-0.21,0.32
3.538311004638672,-0.05,-0.12,-0.12,0.19
3.5480542182922363,-0.07,-0.07,-0.03,0.1
3.558446168899536,-0.14,-0.06,-0.01,0.07
3.5678930282592773,-0.38,-0.01,-0.04,0.12
3.5780482292175293,-0.36,0.03,-0.12,0.19
3.5879340171813965,0.26,0.01,-0.26,0.26
3.5980000495910645,0.46,-0.06,-0.26,0.31
3.609743118286133,0.13,-0.18,-0.14,0.27
3.6176810264587402,0.03,-0.19,-0.11,0.35
3.6268692016601562,0.08,-0.03,-0.09,0.15
3.6368889808654785,0.31,0.15,-0.1,0.23
3.6477341651916504,0.41,0.19,-0.28,0.35
3.6588082313537598,0.18,0.11,-0.2,0.23
3.6666440963745117,-0.16,0.07,-0.06,0.09
3.6773619651794434,-0.1,0.02,-0.17,0.22
3.687282085418701,0.21,0.06,-0.19,0.24
3.697134017944336,0.27,0.15,-0.12,0.19
3.7092971801757812,0.13,0.18,-0.28,0.35
3.7163641452789307,0.02,0.16,-0.27,0.34
3.7265031337738037,0.06,0.2,-0.21,0.3
3.73684024810791,-0.27,0.28,-0.3,0.42
3.7471389770507812,-0.52,0.36,-0.38,0.52
3.7578892707824707,-0.37,0.39,-0.19,0.43
3.766097068786621,-0.2,0.4,-0.18,0.44
3.7760860919952393,-0.18,0.59,-0.31,0.66
3.7869961261749268,-0.15,0.63,-0.32,0.7
3.7966511249542236,0.0,0.67,-0.21,0.72
3.8097290992736816,-0.14,0.6,-0.31,0.71
3.815899133682251,-0.39,0.59,-0.17,0.73
3.825801134109497,-0.57,0.43,0.22,0.55
3.8366410732269287,-0.19,0.03,0.04,0.05
3.8458001613616943,-0.04,0.05,-0.15,0.16
3.858351230621338,-0.03,0.02,-0.16,0.18
3.865561008453369,0.02,-0.02,-0.15,0.18
3.876368999481201,0.15,-0.16,-0.23,0.28
3.8864591121673584,0.2,-0.18,-0.29,0.34
3.8957571983337402,0.02,-0.02,-0.21,0.23
3.9111990928649902,-0.13,-0.16,-0.15,0.23
3.9153101444244385,-0.18,-0.31,0.08,0.35
3.9252142906188965,-0.03,-0.38,0.07,0.44
3.936453104019165,0.24,-0.4,-0.17,0.53
3.9458680152893066,0.27,-0.39,-0.16,0.48
3.958405017852783,0.02,-0.38,-0.23,0.5
3.9649300575256348,-0.12,-0.29,-0.28,0.42
3.9754021167755127,-0.09,-0.25,-0.34,0.44
3.986222267150879,-0.17,-0.28,-0.41,0.56
3.995251178741455,-0.25,-0.22,-0.39,0.58
4.008961200714111,-0.11,-0.17,-0.42,0.6
4.014968156814575,-0.01,-0.14,-0.38,0.54
4.02471923828125,0.13,-0.13,-0.34,0.5
4.035171985626221,0.09,-0.18,-0.14,0.31
4.045379161834717,-0.16,-0.2,0.0,0.2
4.0583271980285645,-0.19,-0.16,0.14,0.21
4.064476013183594,-0.2,-0.23,0.29,0.37
4.074411153793335,-0.12,-0.35,0.36,0.52
4.084955215454102,0.08,-0.39,0.35,0.58
4.095148086547852,0.21,-0.22,0.1,0.28
4.107629060745239,0.02,0.08,-0.18,0.19
4.114109039306641,0.12,0.24,-0.16,0.31
4.124050140380859,-0.01,0.15,-0.05,0.15
4.136000156402588,-0.28,0.08,-0.12,0.22
4.144131183624268,-0.38,0.25,-0.1,0.26
4.159382104873657,-0.38,0.2,0.12,0.25
4.164021015167236,-0.16,0.07,0.37,0.38
4.174176216125488,-0.02,0.11,0.64,0.7
4.1859681606292725,0.01,0.09,0.78,0.88
4.194485187530518,0.05,0.17,0.55,0.68
4.207363128662109,-0.02,0.33,0.31,0.54
4.2136311531066895,0.0,0.34,-0.01,0.34
4.223543167114258,-0.03,0.28,-0.25,0.49
4.235623121261597,-0.16,0.29,-0.43,0.68
4.244215965270996,-0.23,0.36,-0.52,0.75
4.257559061050415,-0.28,0.34,-0.38,0.59
4.2632670402526855,-0.17,0.14,-0.58,0.74
4.273997068405151,-0.04,0.05,-0.8,0.95
4.285096168518066,0.04,0.03,-0.77,0.81
4.293931007385254,0.22,-0.09,-0.85,0.89
4.309888124465942,0.14,-0.2,-1.29,1.38
4.313078165054321,-0.26,-0.1,-1.78,1.82
4.322934150695801,-0.26,0.12,-2.11,2.12
4.332878112792969,-0.18,0.08,-2.56,2.58
4.34291410446167,-0.1,-0.08,-2.95,3.02
4.3529052734375,0.07,-0.22,-2.95,3.03
4.363799095153809,0.05,-0.35,-3.1,3.2
4.373335123062134,0.12,-0.33,-3.27,3.35
4.383537292480469,0.15,-0.29,-3.17,3.22
4.394357204437256,-0.01,-0.29,-2.95,2.98
4.403658151626587,-0.16,-0.37,-2.27,2.31
4.41234016418457,-0.16,-0.47,-1.55,1.63
4.423099994659424,-0.28,-0.36,-1.46,1.52
4.433319091796875,-0.12,0.37,-1.42,1.47
4.443970203399658,0.15,0.88,-0.52,1.02
4.452160120010376,0.09,1.32,0.36,1.59
4.4620680809021,-0.03,1.57,1.68,2.8
4.4718921184539795,-0.01,2.06,4.33,4.92
4.482723236083984,-0.15,2.69,7.1,7.59
4.492067098617554,-0.14,3.46,9.13,10.01
4.5031561851501465,-0.04,4.12,10.92,12.48
4.511906147003174,-0.13,3.93,11.8,13.44
4.522511959075928,-0.14,2.74,11.46,12.57
4.532618999481201,-0.09,1.58,10.74,11.28
4.543589115142822,-0.09,1.12,10.05,10.26
4.5519609451293945,-0.04,1.42,9.65,9.79
4.562351226806641,-0.06,1.92,9.52,9.71
4.572296142578125,-0.09,2.07,8.99,9.23
4.581823110580444,-0.03,1.97,10.18,10.39
4.591653108596802,0.05,1.7,11.17,11.31
4.603253126144409,0.19,1.45,10.62,10.76
4.611382961273193,0.22,1.42,8.66,9.0
4.621950149536133,0.41,1.98,5.78,6.8
4.631620168685913,0.28,2.75,3.3,5.47
4.641330242156982,-0.01,3.18,1.86,4.7
4.651791095733643,-0.05,3.22,1.41,3.96
4.661611080169678,0.08,1.93,1.64,2.94
4.671610116958618,0.11,-0.3,1.66,2.43
4.681596279144287,-0.05,-2.0,1.73,2.96
4.691056251525879,-0.04,-2.86,1.76,3.42
4.70280122756958,0.1,-3.06,0.53,3.1
4.710950136184692,-0.07,-2.82,-1.84,3.4
4.720725059509277,-0.15,-2.2,-4.08,4.7
4.731222152709961,-0.22,-1.35,-5.73,6.11
4.7408411502838135,-0.31,-0.88,-6.88,7.13
4.7523112297058105,-0.23,-1.33,-8.06,8.18
4.760919094085693,-0.25,-1.88,-8.22,8.44
4.771484136581421,-0.13,-2.22,-7.76,8.11
4.781064033508301,-0.13,-2.21,-7.55,7.92
4.792057991027832,-0.27,-2.02,-7.95,8.26
4.802130222320557,-0.37,-1.78,-8.18,8.4
4.810235977172852,-0.4,-1.54,-8.52,8.67
4.820824146270752,-0.37,-1.12,-8.88,8.95
4.830588102340698,-0.35,-0.85,-9.64,9.67
4.840129137039185,-0.21,-0.83,-9.79,9.83
4.851664066314697,-0.03,-1.13,-9.22,9.32
4.860574245452881,-0.02,-1.46,-8.39,8.56
4.870495080947876,-0.01,-1.69,-7.51,7.75
4.880401134490967,-0.16,-1.95,-7.16,7.49
4.891838073730469,-0.26,-2.29,-7.07,7.53
4.901680946350098,-0.15,-2.58,-6.81,7.39
4.909727096557617,-0.03,-2.78,-6.73,7.39
4.919955253601074,0.12,-2.54,-6.95,7.43
4.930091142654419,0.0,-2.13,-7.08,7.39
4.939754962921143,-0.17,-2.17,-7.27,7.59
4.94948410987854,-0.02,-2.46,-7.19,7.6
4.9593729972839355,0.11,-2.9,-6.94,7.52
4.970084190368652,0.1,-3.2,-6.78,7.49
4.980195999145508,0.28,-3.41,-6.79,7.59
4.9918341636657715,0.41,-3.63,-6.97,7.86
5.000882148742676,0.37,-3.98,-7.19,8.24
5.009033203125,0.31,-4.21,-7.56,8.69
5.020029067993164,0.04,-4.15,-8.02,9.07
5.029560089111328,-0.32,-4.05,-7.76,8.76
5.040149211883545,-0.44,-4.1,-7.22,8.3
5.048882007598877,-0.41,-4.23,-6.94,8.14
5.0594282150268555,-0.31,-4.46,-6.41,7.88
5.069972038269043,-0.45,-4.15,-5.08,6.66
5.079339027404785,-0.51,-3.06,-2.8,4.18
5.092185020446777,-0.27,-1.63,-0.89,1.87
5.099696159362793,-0.28,0.11,0.74,0.97
5.108502149581909,-0.46,2.46,2.5,3.86
5.118729114532471,-0.4,4.45,4.33,7.02
5.128421068191528,-0.18,6.47,6.01,10.77
5.139737129211426,-0.38,6.87,3.88,10.35
5.148275136947632,-0.66,6.63,3.52,7.52
5.158301115036011,-0.69,8.68,9.58,14.71
5.169809103012085,-0.73,7.47,17.09,20.79
5.178767204284668,-0.69,4.27,20.63,22.0
5.192084074020386,-0.49,2.54,19.35,19.72
5.199170112609863,-0.33,2.34,15.9,16.07
5.207971096038818,-0.24,2.62,13.69,13.94
5.218585968017578,-0.22,2.79,12.75,13.05
5.2278571128845215,-0.23,2.15,13.64,13.81
5.239715099334717,-0.15,1.29,12.62,12.68
5.247777938842773,-0.09,1.19,10.49,10.55
5.257765054702759,-0.82,1.89,8.04,8.26
5.269748210906982,-1.61,2.82,5.84,6.55
5.278087139129639,-1.14,3.31,4.23,5.54
5.289577007293701,0.05,3.05,2.74,4.17
5.298655986785889,2.23,2.23,1.31,2.59
5.3075110912323,4.44,1.48,0.76,1.83
5.319547176361084,5.11,1.07,0.4,1.36
5.327593088150024,4.39,0.79,-0.21,0.95
5.341086149215698,3.08,0.6,-0.99,1.19
5.347161054611206,1.75,0.52,-1.61,1.69
5.357927083969116,0.84,0.37,-1.36,1.55
5.368788242340088,0.33,0.15,-1.4,1.6
5.377747058868408,-0.39,-0.29,-2.43,2.44
5.391826152801514,-0.68,-0.47,-3.28,3.41
5.3980712890625,-0.57,-0.66,-3.98,4.29
5.406890153884888,-0.95,-0.81,-4.32,4.8
5.418894290924072,-2.02,-0.92,-3.76,4.34
5.427268981933594,-3.0,-0.96,-2.82,3.34
5.4402360916137695,-3.39,-0.71,-1.97,2.22
5.446591138839722,-2.93,-0.21,-1.5,1.52
5.456594944000244,-1.84,0.07,-1.94,1.96
5.4680211544036865,-1.51,-0.07,-2.19,2.19
5.477105140686035,-1.76,-0.39,-1.78,1.83
5.492241144180298,-1.34,-0.75,-1.38,1.68
5.497498035430908,-0.67,-0.99,-0.99,1.68
5.506632089614868,0.06,-0.98,-1.05,1.81
5.516242980957031,0.5,-0.77,-1.38,1.93
5.526162147521973,0.83,-0.2,-1.32,1.4
5.539642095565796,1.64,0.78,-0.85,1.6
5.5461201667785645,1.68,1.89,-0.9,3.02
5.5560712814331055,0.48,1.22,-1.67,2.41
5.566728115081787,-0.37,1.1,-1.22,2.23
5.5764360427856445,-0.8,0.25,0.42,0.8
5.592051029205322,-0.99,-0.61,1.09,1.26
5.597054958343506,-1.0,-0.58,-0.1,0.94
5.605679035186768,-0.8,-0.54,-0.34,0.93
5.615555286407471,-0.53,-0.45,0.28,0.68
5.626119136810303,-0.2,-0.31,0.66,0.75
5.642009258270264,-0.21,-0.24,0.1,0.37
5.645552158355713,-0.51,0.04,-0.54,0.54
5.656060218811035,-0.77,0.15,-0.95,1.0
5.666344165802002,-0.95,0.15,-0.92,0.99
5.676607131958008,-0.93,0.31,-0.37,0.5
5.693551063537598,-1.06,0.43,-0.17,0.48
5.69667911529541,-1.27,0.53,-0.15,0.62
5.705151081085205,-1.27,0.22,-0.6,0.63
5.7152111530303955,-1.28,0.07,-0.96,1.07
5.72565221786499,-0.73,-0.04,-0.95,1.07
5.740430116653442,0.07,-0.09,-0.69,0.81
5.745058059692383,0.32,-0.17,-0.44,0.62
5.754853248596191,0.19,-0.23,-0.22,0.55
5.765382289886475,0.0,-0.04,0.09,0.14
5.775275230407715,-0.08,0.05,0.47,0.55
5.791625022888184,-0.13,-0.04,0.51,0.57
5.795716285705566,-0.25,-0.12,0.42,0.44
5.804458141326904,-0.62,-0.11,0.48,0.49
5.8144690990448,-0.9,-0.04,0.34,0.38
5.825284957885742,-0.89,-0.04,0.03,0.2
5.842461109161377,-0.46,-0.16,0.35,0.41
5.844491004943848,-0.22,-0.38,0.68,0.78
5.854283094406128,-0.55,-0.37,0.55,0.68
5.864164113998413,-1.11,-0.03,0.08,0.17
5.874232292175293,-1.18,0.16,-0.02,0.37
5.888772964477539,-0.53,-0.03,0.08,0.12
5.894675254821777,-0.25,0.05,-0.11,0.12
5.903878211975098,-0.63,0.15,0.05,0.16
5.914029121398926,-1.62,-0.09,0.41,0.46
5.923856258392334,-3.29,-0.02,0.25,0.32
5.938628196716309,-6.18,0.02,-0.14,0.25
5.943819999694824,-6.7,0.01,-0.05,0.33
5.95372200012207,-0.5,-0.15,-0.11,0.45
5.963755130767822,7.02,0.08,-0.23,0.34
5.974557161331177,9.19,-0.03,-0.25,0.35
5.989248275756836,6.36,-0.24,-0.34,0.64
5.994900226593018,2.84,-0.02,-0.25,0.39
6.003815174102783,0.3,-0.06,0.07,0.11
6.0136730670928955,-0.49,-0.1,0.29,0.32
6.023615121841431,0.25,-0.14,0.0,0.28
6.038673162460327,0.4,-0.05,-0.2,0.27
6.043515205383301,0.15,-0.11,-0.08,0.21
6.053215026855469,-0.08,-0.06,-0.08,0.12
6.06410813331604,0.37,0.08,-0.28,0.3
6.073630094528198,0.98,-0.02,-0.29,0.3
6.083514213562012,1.37,-0.1,-0.05,0.21
6.094211101531982,0.79,-0.04,0.12,0.15
6.102890968322754,-0.23,-0.04,-0.01,0.11
6.113725185394287,-0.78,-0.06,-0.06,0.12
6.12338399887085,-0.75,-0.07,-0.17,0.2
6.141656160354614,-0.5,-0.04,-0.07,0.08
6.143503189086914,-0.31,-0.04,0.14,0.16
6.152515172958374,0.16,-0.02,0.15,0.15
6.1625730991363525,0.66,0.0,0.23,0.23
6.172485113143921,0.76,-0.13,0.2,0.25
6.183220148086548,-0.08,-0.11,0.14,0.24
6.193599224090576,-0.82,-0.03,-0.04,0.05
6.202218055725098,-1.46,0.07,-0.28,0.29
6.212213039398193,-1.94,0.05,-0.24,0.24
6.222896099090576,-1.97,0.02,-0.2,0.21
6.23228120803833,-1.53,-0.03,-0.13,0.17
6.242105960845947,-0.74,0.0,0.07,0.14
6.252242088317871,0.18,0.02,0.29,0.3
6.261959075927734,0.28,-0.17,-0.19,0.26
6.272526264190674,0.01,0.09,-0.33,0.35
6.28239107131958,-0.2,0.06,-0.31,0.34
6.293239116668701,-0.62,0.11,-0.06,0.3
6.302231073379517,-0.93,0.09,0.13,0.34
6.312362194061279,-1.11,-0.06,0.12,0.2
6.322155952453613,-1.11,-0.15,0.18,0.23
6.332300186157227,-0.45,-0.16,0.09,0.18
6.342489242553711,1.11,0.05,-0.07,0.11
6.352011203765869,2.19,0.08,-0.12,0.22
6.362194061279297,1.25,0.07,0.17,0.23
6.37188720703125,1.51,0.04,0.01,0.08
6.381677150726318,0.64,0.09,0.05,0.15
6.392552137374878,-0.2,0.13,0.23,0.27
6.401769161224365,-0.74,0.09,0.24,0.25
6.411189079284668,-0.69,0.01,0.35,0.35
6.421741962432861,-0.43,-0.01,-0.01,0.14
6.431128978729248,-0.2,0.05,-0.88,0.88
6.440972089767456,-0.27,0.4,-1.33,1.4
6.451542139053345,0.0,0.29,-0.74,0.82
6.460892200469971,-0.3,-0.2,0.02,0.22
6.471309185028076,-0.34,-0.16,0.09,0.21
6.480752944946289,-0.14,-0.12,-0.14,0.25
6.491762161254883,0.16,-0.02,0.03,0.26
6.501296043395996,0.29,0.0,0.41,0.42
6.5105531215667725,-0.03,-0.02,0.22,0.23
6.521243095397949,-0.48,0.07,-0.18,0.19
6.530538082122803,-0.51,0.03,-0.29,0.29
6.540386199951172,-0.43,-0.15,-0.11,0.23
6.5502941608428955,-0.41,-0.18,0.04,0.2
6.5610432624816895,-0.45,-0.05,-0.12,0.15
6.570917129516602,-0.11,0.08,-0.08,0.11
6.58034610748291,0.29,0.0,0.3,0.3
6.5911900997161865,0.27,-0.01,0.39,0.39
6.599893093109131,0.1,0.14,0.26,0.29
6.610840082168579,0.02,0.08,0.13,0.19
6.620564937591553,0.17,-0.03,-0.19,0.38
6.629910945892334,0.2,0.1,-0.08,0.2
6.64218807220459,0.16,0.04,0.08,0.1
6.649728059768677,-0.12,0.0,-0.28,0.32
6.659657001495361,-0.17,0.06,-0.71,0.73
6.670209169387817,0.15,0.2,-0.78,0.8
6.679652214050293,0.34,0.24,-0.36,0.44
6.693523168563843,0.09,0.05,0.17,0.18
6.699353218078613,-0.04,-0.12,0.27,0.39
6.709370136260986,0.04,-0.1,0.31,0.5
6.7199859619140625,-0.2,-0.15,0.44,0.55